Folder: hdr-8/data

File: df_xrf.csv
,sio2,tio2,al2o3,fe2o3,mgo,cao,mno,k2o,p2o5,rock_type
0,75.9708,0.0447749,9.6934,1.07925,0.230089,0.330458,0.13109,3.6111,0.116388,granite
7,85.6723,0.0289098,13.3219,0.246193,0.230089,0.409338,0.0106674,4.28253,0.275337,granite
14,82.8072,0.294888,14.5272,1.19893,0.587233,0.262897,0.0847831,2.87413,0.0496716,granite
21,81.7878,0.210979,15.7679,0.766709,0.230089,0.24901,0.0219727,3.02556,0.0573466,granite
28,76.9563,0.272134,14.4456,1.50752,0.230089,0.19504,0.0855431,2.35455,0.0747067,granite
35,80.4133,0.306007,14.2934,1.39557,0.647026,0.181778,0.0744142,2.88136,0.0612007,granite
42,79.7159,0.290603,15.1457,1.76711,0.560221,0.160626,0.12178,3.96948,0.037561,granite
49,81.6687,0.274752,14.9506,1.07498,0.230089,0.224412,0.0733963,3.33826,0.052313,granite
56,79.6503,0.204443,15.018,0.822046,0.230089,0.262506,0.0249178,3.34504,0.0659519,granite
63,79.6929,0.423111,15.2805,1.50585,0.375321,0.202258,0.0444884,3.19017,0.0374281,granite
70,79.4158,0.285423,13.8649,0.876508,0.422306,0.194038,0.0256371,3.38473,0.0302681,granite
77,81.2909,0.229529,13.2613,1.26139,0.436341,0.218118,0.0350424,3.12785,0.0280919,granite
84,67.1319,0.479941,13.308,2.07117,0.57487,0.239318,0.106797,2.42706,0.0446546,granite
91,76.4176,0.566846,15.1586,1.47051,0.615427,0.248368,0.0489806,3.53987,0.0825645,granite
98,76.916,0.3275,15.0109,1.24119,0.483187,0.252673,0.0338752,3.32719,0.0319958,granite
105,77.7999,0.320177,15.1507,1.34324,0.230089,0.24425,0.0362639,3.56823,0.0567319,granite
112,80.6059,0.265517,15.3888,1.38481,0.50592,0.306565,0.0390189,3.31919,0.0604199,granite
119,69.8472,0.292786,12.6759,1.92921,0.230089,0.243436,0.127656,2.50715,0.0318961,granite
126,66.1637,1.13775,15.8163,8.73436,4.95948,4.07379,0.150471,2.1558,0.197906,diorite
133,69.8619,0.786097,16.3251,6.18919,3.2584,4.73006,0.112565,1.56321,0.0955887,diorite
140,57.7152,1.17029,17.3723,11.3865,6.00588,3.72741,0.168589,2.60001,0.231513,diorite
147,63.1417,0.608421,16.095,7.18482,2.88765,5.92067,0.250712,4.16902,0.18513,diorite
154,61.7928,0.922415,17.5936,7.77764,3.45465,5.43852,0.18402,2.14044,0.211628,diorite
161,68.3903,0.815685,17.4023,7.82133,4.26461,5.12878,0.157243,2.31902,0.158633,diorite
168,64.504,0.899661,18.3617,8.30358,4.31949,5.40738,0.156239,2.337,0.160461,diorite
175,64.4298,0.849924,17.5202,7.07495,3.99182,4.9202,0.164707,2.27354,0.145127,diorite
182,51.135,0.755207,13.2001,7.67831,3.4468,5.82708,0.234656,2.59341,0.178917,diorite
189,62.746,1.0154,17.1939,8.47597,4.26826,5.22873,0.15537,2.45063,0.153052,diorite
196,62.542,0.792809,16.3406,10.6663,4.98752,7.6508,0.237941,2.0762,0.221346,diorite
203,60.4438,0.93908,19.273,8.30363,4.3092,6.19513,0.144377,2.40518,0.20176,diorite
210,60.7776,0.986065,16.3799,8.72199,4.04359,5.37256,0.174452,2.79617,0.140792,diorite
217,64.3779,0.641914,15.397,7.42313,4.01841,6.13716,0.156021,1.55237,0.250684,diorite
224,64.1479,0.765079,17.8476,7.73208,4.68586,5.91902,0.166268,2.21717,0.204484,diorite
231,62.4723,0.642009,17.8213,7.07347,3.74062,5.89312,0.169091,1.94157,0.193337,diorite
238,59.5145,0.709619,17.083,8.0791,4.96054,5.91041,0.175307,1.92575,0.144911,diorite
245,57.8049,1.27306,17.2421,9.95129,5.50169,5.01591,0.174194,2.83154,0.223622,diorite
252,81.684,0.250425,14.0741,1.25766,1.21696,1.52182,0.0776036,1.6798,0.080571,diorite
259,77.7149,0.113917,11.6858,0.67772,0.503159,0.720146,0.0472977,4.43826,0.00415314,diorite
266,75.081,0.193202,15.994,0.848906,0.467296,0.910724,0.0598924,5.50515,0.0814348,diorite
273,77.617,0.237869,15.3672,1.22116,0.364062,0.707354,0.0646154,6.32481,0.0450533,diorite
280,59.7487,0.815142,15.4001,9.86475,7.32711,4.86648,0.377011,2.05206,0.12187,diorite
287,58.0538,0.773351,16.404,10.7182,7.52543,5.54048,0.601692,2.21904,0.131239,diorite
294,58.2566,0.958986,16.1545,9.61766,7.17238,6.09939,0.231046,2.74672,0.110557,diorite
301,64.0799,1.03077,16.878,8.50782,5.40455,3.85602,0.27791,3.52389,0.134645,diorite
308,59.4195,0.742054,20.6702,6.07,3.71939,5.47746,0.207228,2.75125,0.255834,diorite
315,77.8192,0.169987,12.5899,1.75404,0.618295,0.284567,0.120151,4.9544,0.0848404,granite
322,86.8305,0.0370322,9.5849,0.170675,0.230089,0.125679,0.0117668,4.72668,0.0535921,granite
329,77.4494,0.0798409,13.1552,0.73111,0.230089,0.170818,0.0328845,5.57088,0.110523,granite
336,82.4188,0.119233,13.914,0.982976,0.411952,0.310745,0.0859774,3.85355,0.0960539,granite
343,97.869,0.00169499,5.79623,0.131019,0.230089,0.180855,0.00719306,1.87728,0.0548049,granite
350,73.062,0.059501,13.3119,0.35431,0.406107,1.50826,0.0169919,6.41154,0.234154,granite
357,75.8806,0.0384831,15.2166,0.291043,0.230089,0.228045,0.0145761,6.90361,0.10446,granite
364,77.2431,0.027364,14.0262,0.19648,0.442998,0.473923,0.0107489,5.34571,0.219219,granite
371,84.7421,0.047609,11.5496,1.71056,0.60742,0.660868,0.179813,3.63588,0.0911366,granite
378,77.281,0.0370593,14.9905,0.662633,0.230089,0.347038,0.0501342,5.72866,0.159414,granite
385,82.6138,0.0229841,12.193,0.616068,0.230089,0.194179,0.0494828,4.6422,0.102433,granite
392,88.4568,0.0225909,9.45314,0.209935,0.230089,0.249432,0.0147797,3.56586,0.0734109,granite
399,76.7999,0.0404357,15.7596,0.315545,0.230089,0.376114,0.0166933,4.44729,0.126771,granite
406,84.1835,0.0493718,11.6912,0.349528,0.230089,0.373186,0.0160962,2.89432,0.0935122,granite
413,81.9862,0.0726677,12.8308,0.763164,0.230089,0.387903,0.0661218,3.52767,0.0873323,granite
420,74.8623,0.0812376,15.1713,0.915223,0.535555,0.959761,0.0981784,4.00835,0.125724,granite
427,79.0958,0.0475818,10.2722,0.331968,0.230089,0.270648,0.0180776,3.73854,0.0956053,granite
434,62.9539,0.583796,17.3262,7.19609,4.99734,4.43696,0.200035,2.50446,0.123448,diorite
441,67.2862,0.624462,15.6551,7.88072,4.98678,3.4573,0.215181,1.83338,0.156939,diorite
448,59.8206,0.675936,16.0267,7.99121,4.75034,3.10174,0.217081,3.05666,0.131106,diorite
455,54.7666,1.092,14.9994,11.0992,6.75439,5.47859,0.302298,2.44929,0.141838,diorite
462,63.6844,0.616882,15.8265,7.70192,4.50909,3.09963,0.211422,3.61031,0.132901,diorite
469,55.6879,0.93904,16.2086,9.3829,5.86474,3.87629,0.296775,2.69976,0.302947,diorite
476,66.1488,0.984967,15.094,4.25932,2.70404,1.8385,0.140916,4.742,0.200713,diorite
483,65.0335,0.533285,13.6398,5.7688,3.27849,4.74869,0.169512,3.42334,0.136821,diorite
490,57.1889,0.755031,17.991,7.03821,5.06153,4.29094,0.216307,2.78844,0.150842,diorite
497,56.1412,0.845584,16.4491,12.3574,6.7845,2.24851,0.431122,2.88615,0.112401,diorite
504,48.2395,0.378444,17.0356,21.7448,4.1584,4.65385,0.341589,0.510184,0.0403353,diorite
511,57.4451,0.721131,15.006,12.9663,6.02866,1.93856,0.248147,1.82484,0.190795,diorite
518,62.4998,0.756794,16.3233,8.04622,5.52028,4.15186,0.235281,2.34725,0.167488,diorite
525,63.421,0.535848,16.7778,5.82733,3.23036,3.37735,0.183274,6.15449,0.149746,diorite
532,55.9232,0.706609,15.3961,8.87476,5.35712,4.64942,0.289527,2.59095,0.164531,diorite
539,55.7669,0.877722,15.8107,9.68205,6.03594,4.74482,0.281954,2.38723,0.145509,diorite
546,58.0346,0.801121,17.5346,8.97843,5.99187,4.66582,0.263849,2.13409,0.172654,diorite
553,47.262,0.797406,16.0194,15.3728,6.24197,6.2903,0.283026,2.22078,0.15051,diorite
560,58.3783,0.895688,16.4166,9.66421,5.63778,2.02272,1.88697,2.3491,0.232011,diorite
567,60.2056,0.809108,18.0792,9.84674,5.39292,2.80679,1.73635,1.66986,0.241547,diorite
574,66.2645,0.562548,13.2751,8.00302,4.07923,3.64194,1.50025,0.869107,0.162438,diorite
581,73.2033,0.13343,16.9982,2.86068,0.9341,5.87348,0.263442,0.00150575,0.103629,diorite
588,59.3722,0.776646,15.3483,9.25354,4.1719,2.50934,0.742364,3.17047,0.199118,diorite
595,61.4533,0.88343,14.3977,9.53461,4.42363,4.12998,0.610785,3.6427,0.159464,diorite
602,61.945,0.849639,16.615,9.22856,5.67651,3.74196,0.423739,3.24722,0.213006,diorite
609,62.7749,0.817448,15.4332,10.3112,4.60661,6.24821,0.419627,1.76157,0.209833,diorite
616,63.0432,0.718691,17.4464,6.79438,3.23892,4.80054,0.126435,2.4073,0.190314,diorite
623,65.1421,0.780348,18.0782,6.7708,3.15861,5.11087,0.117545,2.7748,0.196062,diorite
630,57.6401,0.94502,17.384,9.10992,4.80719,5.55078,0.1711,2.79695,0.186775,diorite
637,67.0885,0.777527,16.4842,6.29642,3.22247,4.53267,0.112917,2.41613,0.186028,diorite
644,59.0302,0.832241,16.127,8.09082,3.88508,6.91371,0.144947,2.59336,0.251896,diorite
651,69.0352,0.877857,16.6832,5.60833,3.17994,4.37334,0.143101,2.36493,0.241613,diorite
658,60.3794,0.89417,18.0969,9.74327,5.08058,5.13722,0.208056,2.73991,0.153699,diorite
665,62.5915,0.76531,17.3746,7.75265,3.6435,4.30422,0.157189,2.96301,0.146672,diorite
672,77.8191,0.270331,12.9559,3.65651,1.55068,4.52006,0.0920983,0.918158,0.0398037,diorite
679,60.4429,0.885125,16.97,9.15886,4.94464,5.1303,0.153334,2.15482,0.23138,diorite
686,58.8099,0.811888,12.8162,9.59224,11.7607,5.89203,0.258774,4.50099,0.0509508,diorite
693,59.6489,0.287444,21.1492,5.12104,6.79363,7.64614,0.1252,2.67385,0.00415314,diorite
700,65.3207,0.224295,17.6144,4.84805,6.3076,7.11494,0.11608,2.71043,0.00415314,diorite
707,62.6584,0.340463,17.87,5.78439,8.02549,6.81576,0.129611,2.69897,0.0420464,diorite
714,61.1086,0.653684,16.1021,8.01039,9.65321,6.57649,0.207472,2.81455,0.0371789,diorite
721,60.5273,1.05526,13.135,10.236,11.2582,5.22449,0.143128,3.67844,0.10544,diorite
728,60.5069,0.754706,16.7488,6.79047,7.29646,4.82538,0.0958576,4.68969,0.19352,diorite
735,65.8867,0.361359,10.451,6.35218,7.49296,6.42698,0.122445,1.6602,0.159481,diorite
742,59.6433,0.404615,19.3639,5.4813,7.45871,6.57998,0.108737,2.84387,0.177622,diorite
937,57.7039,0.547415,17.9604,7.32019,6.36212,5.80203,0.164192,3.99531,0.0998582,diorite
944,54.8933,0.953128,18.6753,8.84454,7.99398,4.69307,0.187101,3.0867,0.0413321,diorite
951,55.8268,0.733349,17.2741,9.58627,8.03676,4.34829,0.202939,2.42958,0.0604531,diorite
958,46.5438,0.612367,11.2961,7.85154,4.6216,8.27378,0.206536,1.39571,0.071866,diorite
965,65.0411,0.766964,13.428,8.57468,7.12822,3.83867,0.205287,2.54496,0.193237,diorite
972,62.4738,0.71964,15.2877,8.14914,6.53418,4.22238,0.177967,3.07487,0.176359,diorite
979,60.2027,0.554412,15.3563,8.64692,7.41381,5.44724,0.190019,2.24051,0.192855,diorite
985,60.5547,0.673305,16.5636,8.22852,6.78725,4.50383,0.188363,3.04743,0.171591,diorite